word,color,congruent,corans,polycolor,trials_1.thisRepN,trials_1.thisTrialN,trials_1.thisN,trials_1.thisIndex,trials_2.thisRepN,trials_2.thisTrialN,trials_2.thisN,trials_2.thisIndex,trials_3.thisRepN,trials_3.thisTrialN,trials_3.thisN,trials_3.thisIndex,instructionstext1.started,instructionstext1.stopped,target1.started,target1.stopped,response1.keys,response1.corr,response1.rt,response1.started,response1.stopped,Instructiontext2.started,Instructiontext2.stopped,target2.started,target2.stopped,response2.keys,response2.corr,response2.rt,response2.started,response2.stopped,instructiontext3.started,instructiontext3.stopped,target3.started,target3.stopped,response3.keys,response3.corr,response3.rt,response3.started,response3.stopped,polygon.started,polygon.stopped,participant,session,date,expName,psychopyVersion,frameRate,
red,red,1,left,,0,0,0,0,,,,,,,,,10.634346900042146,None,139.82382920000236,None,left,1,1.5128442000132054,139.82382920000236,None,,,,,,,,,,,,,,,,,,,,,Rishi,001,2021_Apr_09_1730,exp1,2020.2.10,59.918702299519296,
blue,blue,1,right,,0,1,1,7,,,,,,,,,,,142.35633139999118,None,right,1,1.5780454999767244,142.35633139999118,None,,,,,,,,,,,,,,,,,,,,,Rishi,001,2021_Apr_09_1730,exp1,2020.2.10,59.918702299519296,
blue,blue,1,right,,0,2,2,4,,,,,,,,,,,144.9394632000476,None,right,1,1.530027600005269,144.9394632000476,None,,,,,,,,,,,,,,,,,,,,,Rishi,001,2021_Apr_09_1730,exp1,2020.2.10,59.918702299519296,
red,red,1,left,,0,3,3,8,,,,,,,,,,,147.48853850003798,None,left,1,1.4743102000793442,147.48853850003798,None,,,,,,,,,,,,,,,,,,,,,Rishi,001,2021_Apr_09_1730,exp1,2020.2.10,59.918702299519296,
blue,blue,1,right,,0,4,4,6,,,,,,,,,,,149.97061289998237,None,right,1,2.241260400041938,149.97061289998237,None,,,,,,,,,,,,,,,,,,,,,Rishi,001,2021_Apr_09_1730,exp1,2020.2.10,59.918702299519296,
green,green,1,down,,0,5,5,3,,,,,,,,,,,153.23645169998053,None,down,1,1.9071400000248104,153.23645169998053,None,,,,,,,,,,,,,,,,,,,,,Rishi,001,2021_Apr_09_1730,exp1,2020.2.10,59.918702299519296,
green,green,1,down,,0,6,6,5,,,,,,,,,,,156.15207589999773,None,down,1,1.2153885000152513,156.15207589999773,None,,,,,,,,,,,,,,,,,,,,,Rishi,001,2021_Apr_09_1730,exp1,2020.2.10,59.918702299519296,
green,green,1,down,,0,7,7,2,,,,,,,,,,,158.3676977000432,None,down,1,1.1292915000813082,158.3676977000432,None,,,,,,,,,,,,,,,,,,,,,Rishi,001,2021_Apr_09_1730,exp1,2020.2.10,59.918702299519296,
red,red,1,left,,0,8,8,1,,,,,,,,,,,160.5172190000303,None,left,1,2.206864299951121,160.5172190000303,None,,,,,,,,,,,,,,,,,,,,,Rishi,001,2021_Apr_09_1730,exp1,2020.2.10,59.918702299519296,
blue,blue,1,right,,1,0,9,4,,,,,,,,,,,163.74965650006197,None,right,1,1.7912907999707386,163.74965650006197,None,,,,,,,,,,,,,,,,,,,,,Rishi,001,2021_Apr_09_1730,exp1,2020.2.10,59.918702299519296,
blue,blue,1,right,,1,1,10,6,,,,,,,,,,,166.5481727999868,None,right,1,0.694311699946411,166.5481727999868,None,,,,,,,,,,,,,,,,,,,,,Rishi,001,2021_Apr_09_1730,exp1,2020.2.10,59.918702299519296,
red,red,1,left,,1,2,11,0,,,,,,,,,,,168.26474060001783,None,left,1,1.3121560000581667,168.26474060001783,None,,,,,,,,,,,,,,,,,,,,,Rishi,001,2021_Apr_09_1730,exp1,2020.2.10,59.918702299519296,
green,green,1,down,,1,3,12,3,,,,,,,,,,,170.5804867000552,None,right,0,2.4973149999277666,170.5804867000552,None,,,,,,,,,,,,,,,,,,,,,Rishi,001,2021_Apr_09_1730,exp1,2020.2.10,59.918702299519296,
red,red,1,left,,1,4,13,1,,,,,,,,,,,174.09596120007336,177.09497410000768,left,1,6.038134900038131,174.09596120007336,None,,,,,,,,,,,,,,,,,,,,,Rishi,001,2021_Apr_09_1730,exp1,2020.2.10,59.918702299519296,
red,red,1,left,,1,5,14,8,,,,,,,,,,,181.14366290008184,None,left,1,1.484422600013204,181.14366290008184,None,,,,,,,,,,,,,,,,,,,,,Rishi,001,2021_Apr_09_1730,exp1,2020.2.10,59.918702299519296,
green,green,1,down,,1,6,15,5,,,,,,,,,,,183.64289230003487,None,down,1,1.6777578999754041,183.64289230003487,None,,,,,,,,,,,,,,,,,,,,,Rishi,001,2021_Apr_09_1730,exp1,2020.2.10,59.918702299519296,
green,green,1,down,,1,7,16,2,,,,,,,,,,,186.32469620008487,None,down,1,0.9490827000699937,186.32469620008487,None,,,,,,,,,,,,,,,,,,,,,Rishi,001,2021_Apr_09_1730,exp1,2020.2.10,59.918702299519296,
blue,blue,1,right,,1,8,17,7,,,,,,,,,,,188.29133310006,None,right,1,1.7954846000066027,188.29133310006,None,,,,,,,,,,,,,,,,,,,,,Rishi,001,2021_Apr_09_1730,exp1,2020.2.10,59.918702299519296,
blue,green,0,down,,,,,,0,0,0,7,,,,,,,,,,,,,,190.11397220008075,None,199.50429070007522,202.519359500031,right,0,12.448624099954031,199.50429070007522,None,,,,,,,,,,,,Rishi,001,2021_Apr_09_1730,exp1,2020.2.10,59.918702299519296,
green,green,1,down,,,,,,0,1,1,5,,,,,,,,,,,,,,,,212.96583510003984,None,left,0,1.4950197000289336,212.96583510003984,None,,,,,,,,,,,,Rishi,001,2021_Apr_09_1730,exp1,2020.2.10,59.918702299519296,
red,green,0,down,,,,,,0,2,2,1,,,,,,,,,,,,,,,,215.4820879000472,218.4976139999926,left,0,8.738038099952973,215.4820879000472,None,,,,,,,,,,,,Rishi,001,2021_Apr_09_1730,exp1,2020.2.10,59.918702299519296,
blue,blue,1,right,,,,,,0,3,3,6,,,,,,,,,,,,,,,,225.22873980004806,None,right,1,1.2481480999849737,225.22873980004806,None,,,,,,,,,,,,Rishi,001,2021_Apr_09_1730,exp1,2020.2.10,59.918702299519296,
red,blue,0,right,,,,,,0,4,4,0,,,,,,,,,,,,,,,,227.49427730008028,None,left,0,1.114964000065811,227.49427730008028,None,,,,,,,,,,,,Rishi,001,2021_Apr_09_1730,exp1,2020.2.10,59.918702299519296,
green,red,0,left,,,,,,0,5,5,3,,,,,,,,,,,,,,,,229.6268525000196,None,down,0,1.0152686999645084,229.6268525000196,None,,,,,,,,,,,,Rishi,001,2021_Apr_09_1730,exp1,2020.2.10,59.918702299519296,
red,red,1,left,,,,,,0,6,6,8,,,,,,,,,,,,,,,,231.65980770008173,None,right,0,2.6837317999452353,231.65980770008173,None,,,,,,,,,,,,Rishi,001,2021_Apr_09_1730,exp1,2020.2.10,59.918702299519296,
green,blue,0,right,,,,,,0,7,7,2,,,,,,,,,,,,,,,,235.3586056000786,None,down,0,0.7509573999559507,235.3586056000786,None,,,,,,,,,,,,Rishi,001,2021_Apr_09_1730,exp1,2020.2.10,59.918702299519296,
blue,red,0,left,,,,,,0,8,8,4,,,,,,,,,,,,,,,,237.14100110006984,None,left,1,0.9975048000924289,237.14100110006984,None,,,,,,,,,,,,Rishi,001,2021_Apr_09_1730,exp1,2020.2.10,59.918702299519296,
green,blue,0,right,,,,,,1,0,9,2,,,,,,,,,,,,,,,,239.14007269998547,None,down,0,0.7534035000717267,239.14007269998547,None,,,,,,,,,,,,Rishi,001,2021_Apr_09_1730,exp1,2020.2.10,59.918702299519296,
blue,blue,1,right,,,,,,1,1,10,6,,,,,,,,,,,,,,,,240.92334089998621,None,right,1,1.2822799999266863,240.92334089998621,None,,,,,,,,,,,,Rishi,001,2021_Apr_09_1730,exp1,2020.2.10,59.918702299519296,
blue,red,0,left,,,,,,1,2,11,4,,,,,,,,,,,,,,,,243.20536360004917,None,right,0,1.0833508999785408,243.20536360004917,None,,,,,,,,,,,,Rishi,001,2021_Apr_09_1730,exp1,2020.2.10,59.918702299519296,
blue,green,0,down,,,,,,1,3,12,7,,,,,,,,,,,,,,,,245.2882636000868,None,down,1,1.4816407000180334,245.2882636000868,None,,,,,,,,,,,,Rishi,001,2021_Apr_09_1730,exp1,2020.2.10,59.918702299519296,
green,green,1,down,,,,,,1,4,13,5,,,,,,,,,,,,,,,,247.78717000002507,None,down,1,1.1215319999027997,247.78717000002507,None,,,,,,,,,,,,Rishi,001,2021_Apr_09_1730,exp1,2020.2.10,59.918702299519296,
green,red,0,left,,,,,,1,5,14,3,,,,,,,,,,,,,,,,249.92038380005397,None,left,1,1.7731578999664634,249.92038380005397,None,,,,,,,,,,,,Rishi,001,2021_Apr_09_1730,exp1,2020.2.10,59.918702299519296,
red,blue,0,right,,,,,,1,6,15,0,,,,,,,,,,,,,,,,252.70272689999547,None,right,1,2.00936099991668,252.70272689999547,None,,,,,,,,,,,,Rishi,001,2021_Apr_09_1730,exp1,2020.2.10,59.918702299519296,
red,red,1,left,,,,,,1,7,16,8,,,,,,,,,,,,,,,,255.718371200026,None,left,1,2.1890838000690565,255.718371200026,None,,,,,,,,,,,,Rishi,001,2021_Apr_09_1730,exp1,2020.2.10,59.918702299519296,
red,green,0,down,,,,,,1,8,17,1,,,,,,,,,,,,,,,,258.9169072000077,None,down,1,2.2279759000521153,258.9169072000077,None,,,,,,,,,,,,Rishi,001,2021_Apr_09_1730,exp1,2020.2.10,59.918702299519296,
blue,blue,1,right,blue,,,,,,,,,0,0,0,6,,,,,,,,,,,,,,,,,,,261.16809819999617,None,297.22125589998905,300.22032910003327,right,1,3.576588000054471,297.22125589998905,None,297.22125589998905,None,Rishi,001,2021_Apr_09_1730,exp1,2020.2.10,59.918702299519296,
red,red,1,left,red,,,,,,,,,0,1,1,17,,,,,,,,,,,,,,,,,,,,,301.81987150001805,None,down,0,2.63947279995773,301.81987150001805,None,301.81987150001805,None,Rishi,001,2021_Apr_09_1730,exp1,2020.2.10,59.918702299519296,
red,green,0,down,blue,,,,,,,,,0,2,2,1,,,,,,,,,,,,,,,,,,,,,305.4686030000448,308.4841809000354,down,1,3.274847000022419,305.4686030000448,None,305.4686030000448,None,Rishi,001,2021_Apr_09_1730,exp1,2020.2.10,59.918702299519296,
red,blue,0,right,red,,,,,,,,,0,3,3,9,,,,,,,,,,,,,,,,,,,,,309.75010180007666,312.7654900000198,right,1,6.813508899998851,309.75010180007666,None,309.75010180007666,None,Rishi,001,2021_Apr_09_1730,exp1,2020.2.10,59.918702299519296,
blue,blue,1,right,blue,,,,,,,,,0,4,4,15,,,,,,,,,,,,,,,,,,,,,317.5811636999715,None,down,0,2.6751622000010684,317.5811636999715,None,317.5811636999715,None,Rishi,001,2021_Apr_09_1730,exp1,2020.2.10,59.918702299519296,
red,red,1,left,red,,,,,,,,,0,5,5,8,,,,,,,,,,,,,,,,,,,,,321.27989880007226,None,left,1,1.8628208000445738,321.27989880007226,None,321.27989880007226,None,Rishi,001,2021_Apr_09_1730,exp1,2020.2.10,59.918702299519296,
green,green,1,down,green,,,,,,,,,0,6,6,5,,,,,,,,,,,,,,,,,,,,,324.16229920007754,None,down,1,1.1052819000324234,324.16229920007754,None,324.16229920007754,None,Rishi,001,2021_Apr_09_1730,exp1,2020.2.10,59.918702299519296,
red,blue,0,right,green,,,,,,,,,0,7,7,0,,,,,,,,,,,,,,,,,,,,,326.27829240006395,329.2937049000757,right,1,3.0514937000116333,326.27829240006395,None,326.27829240006395,None,Rishi,001,2021_Apr_09_1730,exp1,2020.2.10,59.918702299519296,
green,blue,0,right,green,,,,,,,,,0,8,8,11,,,,,,,,,,,,,,,,,,,,,330.36026770004537,None,right,1,2.6991996000288054,330.36026770004537,None,330.36026770004537,None,Rishi,001,2021_Apr_09_1730,exp1,2020.2.10,59.918702299519296,
red,green,0,down,red,,,,,,,,,0,9,9,10,,,,,,,,,,,,,,,,,,,,,334.07534460001625,None,down,1,1.026413599960506,334.07534460001625,None,334.07534460001625,None,Rishi,001,2021_Apr_09_1730,exp1,2020.2.10,59.918702299519296,
blue,red,0,left,red,,,,,,,,,0,10,10,4,,,,,,,,,,,,,,,,,,,,,336.12490080005955,None,left,1,1.0834468000102788,336.12490080005955,None,336.12490080005955,None,Rishi,001,2021_Apr_09_1730,exp1,2020.2.10,59.918702299519296,
green,green,1,down,green,,,,,,,,,0,11,11,14,,,,,,,,,,,,,,,,,,,,,338.2238325000508,None,down,1,0.9096649999264628,338.2238325000508,None,338.2238325000508,None,Rishi,001,2021_Apr_09_1730,exp1,2020.2.10,59.918702299519296,
blue,red,0,left,blue,,,,,,,,,0,12,12,13,,,,,,,,,,,,,,,,,,,,,340.14011600008234,343.1557699000696,right,0,3.760434699943289,340.14011600008234,None,340.14011600008234,None,Rishi,001,2021_Apr_09_1730,exp1,2020.2.10,59.918702299519296,
blue,green,0,down,red,,,,,,,,,0,13,13,7,,,,,,,,,,,,,,,,,,,,,344.9048914000159,None,down,1,1.8090527000604197,344.9048914000159,None,344.9048914000159,None,Rishi,001,2021_Apr_09_1730,exp1,2020.2.10,59.918702299519296,
green,blue,0,right,blue,,,,,,,,,0,14,14,2,,,,,,,,,,,,,,,,,,,,,347.73777380003594,None,right,1,1.2885728999972343,347.73777380003594,None,347.73777380003594,None,Rishi,001,2021_Apr_09_1730,exp1,2020.2.10,59.918702299519296,
green,red,0,left,blue,,,,,,,,,0,15,15,3,,,,,,,,,,,,,,,,,,,,,350.03630490007345,None,left,1,2.1340280000586063,350.03630490007345,None,350.03630490007345,None,Rishi,001,2021_Apr_09_1730,exp1,2020.2.10,59.918702299519296,
green,red,0,left,green,,,,,,,,,0,16,16,12,,,,,,,,,,,,,,,,,,,,,353.1690177000128,None,left,1,0.9511806999798864,353.1690177000128,None,353.1690177000128,None,Rishi,001,2021_Apr_09_1730,exp1,2020.2.10,59.918702299519296,
blue,green,0,down,blue,,,,,,,,,0,17,17,16,,,,,,,,,,,,,,,,,,,,,355.13493499998003,None,down,1,1.4362580999732018,355.13493499998003,None,355.13493499998003,None,Rishi,001,2021_Apr_09_1730,exp1,2020.2.10,59.918702299519296,
